{
  "resourceType": "Bundle",
  "id": "CareCommunicationMessageExample",
  "meta": {
    "profile": [
      "http://medcomfhir.dk/fhir/core/1.0/StructureDefinition/medcom-careCommunication-message"
    ]
  },
  "type": "message",
  "timestamp": "2020-09-28T12:34:56Z",
  "entry": [
    {
      "fullUrl": "MessageHeader/CareCommunicationMessageHeader",
      "resource": {
        "resourceType": "MessageHeader",
        "id": "CareCommunicationMessageHeader",
        "meta": {
          "profile": [
            "http://medcomfhir.dk/fhir/core/1.0/StructureDefinition/medcom-careCommunication-messageHeader"
          ]
        },
        "text": {
          "status": "generated",
          "div": "<div xmlns=\"http://www.w3.org/1999/xhtml\"><p><b>Generated Narrative</b></p><p><b>event</b>: <span title=\"{http://medcomfhir.dk/fhir/core/1.0/CodeSystem/medcom-messaging-eventCodes care-communication-message}\">Care Communication Message</span></p><h3>Destinations</h3><table class=\"grid\"><tr><td>-</td><td><b>Extension</b></td><td><b>Endpoint</b></td><td><b>Receiver</b></td></tr><tr><td>*</td><td></td><td><a href=\"http://medcomfhir.dk/unknown\">http://medcomfhir.dk/unknown</a></td><td><a href=\"#Organization_MessageReceiver\">See above (Organization/MessageReceiver)</a></td></tr></table><p><b>sender</b>: <a href=\"#Organization_MessageSender\">See above (Organization/MessageSender)</a></p><h3>Sources</h3><table class=\"grid\"><tr><td>-</td><td><b>Endpoint</b></td></tr><tr><td>*</td><td><a href=\"http://medcomfhir.dk/unknown\">http://medcomfhir.dk/unknown</a></td></tr></table><p><b>focus</b>: <a href=\"#Communication_CareCommunicationContent\">See above (Communication/CareCommunicationContent)</a></p></div>"
        },
        "eventCoding": {
          "system": "http://medcomfhir.dk/fhir/core/1.0/CodeSystem/medcom-messaging-eventCodes",
          "code": "care-communication-message"
        },
        "destination": [
          {
            "extension": [
              {
                "url": "http://medcomfhir.dk/fhir/core/1.0/StructureDefinition/medcom-messaging-destinationUseExtension",
                "valueCoding": {
                  "system": "http://medcomfhir.dk/fhir/core/1.0/CodeSystem/medcom-messaging-destinationUse",
                  "code": "primary"
                }
              }
            ],
            "endpoint": "http://medcomfhir.dk/unknown",
            "receiver": {
              "reference": "Organization/MessageReceiver"
            }
          }
        ],
        "sender": {
          "reference": "Organization/MessageSender"
        },
        "source": {
          "endpoint": "http://medcomfhir.dk/unknown"
        },
        "focus": [
          {
            "reference": "Communication/CareCommunicationContent"
          }
        ]
      }
    },
    {
      "fullUrl": "Patient/733cef33-3626-422b-955d-d506aaa65fe1",
      "resource": {
        "resourceType": "Patient",
        "id": "733cef33-3626-422b-955d-d506aaa65fe1",
        "meta": {
          "profile": [
            "http://medcomfhir.dk/fhir/core/1.0/StructureDefinition/medcom-core-patient"
          ]
        },
        "text": {
          "status": "generated",
          "div": "<div xmlns=\"http://www.w3.org/1999/xhtml\"><p><b>Generated Narrative</b></p><p><b>identifier</b>: id: 0102030405</p><p><b>name</b>: Eric Flame (OFFICIAL)</p><p><b>telecom</b>: ph: 12345678</p><p><b>address</b>: Flammesvinget 1 Aarhus 8000 C </p><p><b>managingOrganization</b>: <a href=\"#Organization_BurnCenter\">See above (Organization/BurnCenter)</a></p></div>"
        },
        "identifier": [
          {
            "system": "urn:oid:1.2.208.176.1.2",
            "value": "0102030405"
          }
        ],
        "name": [
          {
            "use": "official",
            "family": "Flame",
            "given": [
              "Eric"
            ]
          }
        ],
        "telecom": [
          {
            "system": "phone",
            "value": "12345678"
          }
        ],
        "address": [
          {
            "line": [
              "Flammesvinget 1"
            ],
            "city": "Aarhus",
            "postalCode": "8000 C"
          }
        ],
        "managingOrganization": {
          "reference": "Organization/BurnCenter"
        }
      }
    },
    {
      "fullUrl": "Organization/BurnCenter",
      "resource": {
        "resourceType": "Organization",
        "id": "BurnCenter",
        "meta": {
          "profile": [
            "http://medcomfhir.dk/fhir/core/1.0/StructureDefinition/medcom-core-organization"
          ]
        },
        "text": {
          "status": "generated",
          "div": "<div xmlns=\"http://www.w3.org/1999/xhtml\"><p><b>Generated Narrative</b></p><p><b>identifier</b>: id: 123456789012345 (OFFICIAL)</p><p><b>name</b>: Aros Burn Center</p></div>"
        },
        "identifier": [
          {
            "use": "official",
            "system": "urn:oid:1.2.208.176.1.1",
            "value": "123456789012345"
          }
        ],
        "name": "Aros Burn Center"
      }
    },
    {
      "fullUrl": "Communication/CareCommunicationContent",
      "resource": {
        "resourceType": "Communication",
        "id": "CareCommunicationContent",
        "meta": {
          "profile": [
            "http://medcomfhir.dk/fhir/core/1.0/StructureDefinition/medcom-careCommunication-communication"
          ]
        },
        "text": {
          "status": "generated",
          "div": "<div xmlns=\"http://www.w3.org/1999/xhtml\"><p><b>Generated Narrative</b></p><p><b>status</b>: unknown</p><p><b>category</b>: <span title=\"Codes: {http://medcomfhir.dk/fhir/core/1.0/CodeSystem/medcom-careCommunication-categoryCodes carecoordination}\">Care Coordination</span></p><p><b>subject</b>: <a href=\"#Patient_733cef33-3626-422b-955d-d506aaa65fe1\">See above (Patient/733cef33-3626-422b-955d-d506aaa65fe1)</a></p><p><b>encounter</b>: <a href=\"#Encounter_EncounterWithLPR3Identifier\">See above (Encounter/EncounterWithLPR3Identifier)</a></p><p><b>sent</b>: 28. sep. 2020 14.34.56</p><h3>Payloads</h3><table class=\"grid\"><tr><td>-</td><td><b>Extension</b></td><td><b>Content[x]</b></td></tr><tr><td>*</td><td>, </td><td>The burns are quite severe</td></tr></table></div>"
        },
        "status": "unknown",
        "category": [
          {
            "coding": [
              {
                "system": "http://medcomfhir.dk/fhir/core/1.0/CodeSystem/medcom-careCommunication-categoryCodes",
                "code": "carecoordination"
              }
            ]
          }
        ],
        "subject": {
          "reference": "Patient/733cef33-3626-422b-955d-d506aaa65fe1"
        },
        "encounter": {
          "reference": "Encounter/EncounterWithLPR3Identifier"
        },
        "sent": "2020-09-28T12:34:56Z",
        "payload": [
          {
            "extension": [
              {
                "url": "http://medcomfhir.dk/fhir/core/1.0/StructureDefinition/medcom-core-datetime-extension",
                "valueDateTime": "2020-09-28"
              },
              {
                "url": "http://medcomfhir.dk/fhir/core/1.0/StructureDefinition/medcom-core-author-extension",
                "valueReference": {
                  "reference": "Practitioner/MichaelBurns"
                }
              }
            ],
            "contentString": "The burns are quite severe"
          }
        ]
      }
    },
    {
      "fullUrl": "Encounter/EncounterWithLPR3Identifier",
      "resource": {
        "resourceType": "Encounter",
        "id": "EncounterWithLPR3Identifier",
        "meta": {
          "profile": [
            "http://medcomfhir.dk/fhir/core/1.0/StructureDefinition/medcom-core-lpr3Encounter"
          ]
        },
        "text": {
          "status": "generated",
          "div": "<div xmlns=\"http://www.w3.org/1999/xhtml\"><p><b>Generated Narrative</b></p><p><b>status</b>: unknown</p><p><b>class</b>: <span title=\"{http://terminology.hl7.org/CodeSystem/v3-ActCode AMB}\">ambulatory</span></p><p><b>subject</b>: <a href=\"#Patient_733cef33-3626-422b-955d-d506aaa65fe1\">See above (Patient/733cef33-3626-422b-955d-d506aaa65fe1)</a></p><p><b>episodeOfCare</b>: <span></span></p></div>"
        },
        "status": "unknown",
        "class": {
          "system": "http://terminology.hl7.org/CodeSystem/v3-ActCode",
          "code": "AMB"
        },
        "subject": {
          "reference": "Patient/733cef33-3626-422b-955d-d506aaa65fe1"
        },
        "episodeOfCare": [
          {
            "identifier": {
              "system": "https://www.esundhed.dk/Registre/Landspatientsregisteret",
              "value": "12345678-1234-1234-1234-123456789012"
            }
          }
        ]
      }
    },
    {
      "fullUrl": "Practitioner/MichaelBurns",
      "resource": {
        "resourceType": "Practitioner",
        "id": "MichaelBurns",
        "text": {
          "status": "generated",
          "div": "<div xmlns=\"http://www.w3.org/1999/xhtml\"><p><b>Generated Narrative</b></p><p><b>name</b>: Michael Burns </p></div>"
        },
        "name": [
          {
            "family": "Burns",
            "given": [
              "Michael"
            ]
          }
        ]
      }
    },
    {
      "fullUrl": "Organization/MessageReceiver",
      "resource": {
        "resourceType": "Organization",
        "id": "MessageReceiver",
        "meta": {
          "profile": [
            "http://medcomfhir.dk/fhir/core/1.0/StructureDefinition/medcom-messaging-organization"
          ]
        },
        "text": {
          "status": "generated",
          "div": "<div xmlns=\"http://www.w3.org/1999/xhtml\"><p><b>Generated Narrative</b></p><p><b>identifier</b>: id: 543210987654321, id: 3210987654321</p><p><b>name</b>: Receiver Organization</p></div>"
        },
        "identifier": [
          {
            "system": "urn:oid:1.2.208.176.1.1",
            "value": "543210987654321"
          },
          {
            "system": "urn:oid:1.3.88",
            "value": "3210987654321"
          }
        ],
        "name": "Receiver Organization"
      }
    },
    {
      "fullUrl": "Organization/MessageSender",
      "resource": {
        "resourceType": "Organization",
        "id": "MessageSender",
        "meta": {
          "profile": [
            "http://medcomfhir.dk/fhir/core/1.0/StructureDefinition/medcom-messaging-organization"
          ]
        },
        "text": {
          "status": "generated",
          "div": "<div xmlns=\"http://www.w3.org/1999/xhtml\"><p><b>Generated Narrative</b></p><p><b>identifier</b>: id: 123456789012345, id: 1234567890123</p><p><b>name</b>: Sender Organization</p></div>"
        },
        "identifier": [
          {
            "system": "urn:oid:1.2.208.176.1.1",
            "value": "123456789012345"
          },
          {
            "system": "urn:oid:1.3.88",
            "value": "1234567890123"
          }
        ],
        "name": "Sender Organization"
      }
    },
    {
      "fullUrl": "Provenance/NewCareCommunicationProvenance",
      "resource": {
        "resourceType": "Provenance",
        "id": "NewCareCommunicationProvenance",
        "meta": {
          "profile": [
            "http://medcomfhir.dk/fhir/core/1.0/StructureDefinition/medcom-messaging-provenance"
          ]
        },
        "text": {
          "status": "generated",
          "div": "<div xmlns=\"http://www.w3.org/1999/xhtml\"><p><b>Generated Narrative</b></p><p><b>target</b>: <a href=\"#MessageHeader_CareCommunicationMessageHeader\">See above (MessageHeader/CareCommunicationMessageHeader)</a></p><p><b>occurred</b>: 28. sep. 2020 14.34.56</p><p><b>recorded</b>: 28. sep. 2020 14.34.56</p><p><b>activity</b>: <span title=\"Codes: {http://medcomfhir.dk/fhir/core/1.0/CodeSystem/medcom-messaging-activityCodes new-message}\">A new message has been sent</span></p><h3>Agents</h3><table class=\"grid\"><tr><td>-</td><td><b>Who</b></td></tr><tr><td>*</td><td><a href=\"#Organization_MessageSender\">See above (Organization/MessageSender)</a></td></tr></table></div>"
        },
        "target": [
          {
            "reference": "MessageHeader/CareCommunicationMessageHeader"
          }
        ],
        "occurredDateTime": "2020-09-28T12:34:56Z",
        "recorded": "2020-09-28T12:34:56Z",
        "activity": {
          "coding": [
            {
              "system": "http://medcomfhir.dk/fhir/core/1.0/CodeSystem/medcom-messaging-activityCodes",
              "code": "new-message"
            }
          ]
        },
        "agent": [
          {
            "who": {
              "reference": "Organization/MessageSender"
            }
          }
        ]
      }
    }
  ]
}