{
  "resourceType": "Bundle",
  "id": "MedComHospitalNotificationMessageAdmitExample",
  "meta": {
    "profile": [
      "http://medcomfhir.dk/fhir/core/1.0/StructureDefinition/medcom-hospitalNotification-message"
    ]
  },
  "type": "message",
  "timestamp": "2020-10-15T13:44:14Z",
  "entry": [
    {
      "fullUrl": "MessageHeader/HospitalNotificationAdmittedMessageHeader",
      "resource": {
        "resourceType": "MessageHeader",
        "id": "HospitalNotificationAdmittedMessageHeader",
        "meta": {
          "profile": [
            "http://medcomfhir.dk/fhir/core/1.0/StructureDefinition/medcom-hospitalNotification-messageHeader"
          ]
        },
        "text": {
          "status": "extensions",
          "div": "<div xmlns=\"http://www.w3.org/1999/xhtml\"><p><b>Generated Narrative</b></p><p><b>MedCom Report of Admission Extension</b>: true</p><p><b>event</b>: <span title=\"{http://medcomfhir.dk/fhir/core/1.0/CodeSystem/medcom-messaging-eventCodes hospital-notification-message}\">Hospital Notification Message</span></p><h3>Destinations</h3><table class=\"grid\"><tr><td>-</td><td><b>Extension</b></td><td><b>Endpoint</b></td><td><b>Receiver</b></td></tr><tr><td>*</td><td></td><td><a href=\"http://medcomfhir.dk/unknown\">http://medcomfhir.dk/unknown</a></td><td><a href=\"#Organization_MessageReceiver\">See above (Organization/MessageReceiver)</a></td></tr></table><p><b>sender</b>: <a href=\"#Organization_MessageSender\">See above (Organization/MessageSender)</a></p><h3>Sources</h3><table class=\"grid\"><tr><td>-</td><td><b>Endpoint</b></td></tr><tr><td>*</td><td><a href=\"http://medcomfhir.dk/unknown\">http://medcomfhir.dk/unknown</a></td></tr></table><p><b>focus</b>: <a href=\"#Encounter_HospitalNotificationEncounterInProgress\">See above (Encounter/HospitalNotificationEncounterInProgress)</a></p></div>"
        },
        "extension": [
          {
            "url": "http://medcomfhir.dk/fhir/core/1.0/StructureDefinition/medcom-messaging-reportOfAdmissionExtension",
            "valueBoolean": true
          }
        ],
        "eventCoding": {
          "system": "http://medcomfhir.dk/fhir/core/1.0/CodeSystem/medcom-messaging-eventCodes",
          "code": "hospital-notification-message"
        },
        "destination": [
          {
            "extension": [
              {
                "url": "http://medcomfhir.dk/fhir/core/1.0/StructureDefinition/medcom-messaging-destinationUseExtension",
                "valueCoding": {
                  "system": "http://medcomfhir.dk/fhir/core/1.0/CodeSystem/medcom-messaging-destinationUse",
                  "code": "primary"
                }
              }
            ],
            "endpoint": "http://medcomfhir.dk/unknown",
            "receiver": {
              "reference": "Organization/MessageReceiver"
            }
          }
        ],
        "sender": {
          "reference": "Organization/MessageSender"
        },
        "source": {
          "endpoint": "http://medcomfhir.dk/unknown"
        },
        "focus": [
          {
            "reference": "Encounter/HospitalNotificationEncounterInProgress"
          }
        ]
      }
    },
    {
      "fullUrl": "Patient/733cef33-3626-422b-955d-d506aaa65fe1",
      "resource": {
        "resourceType": "Patient",
        "id": "733cef33-3626-422b-955d-d506aaa65fe1",
        "meta": {
          "profile": [
            "http://medcomfhir.dk/fhir/core/1.0/StructureDefinition/medcom-core-patient"
          ]
        },
        "text": {
          "status": "generated",
          "div": "<div xmlns=\"http://www.w3.org/1999/xhtml\"><p><b>Generated Narrative</b></p><p><b>identifier</b>: id: 0102030405</p><p><b>name</b>: Eric Flame (OFFICIAL)</p><p><b>telecom</b>: ph: 12345678</p><p><b>address</b>: Flammesvinget 1 Aarhus 8000 C </p><p><b>managingOrganization</b>: <a href=\"#Organization_BurnCenter\">See above (Organization/BurnCenter)</a></p></div>"
        },
        "identifier": [
          {
            "system": "urn:oid:1.2.208.176.1.2",
            "value": "0102030405"
          }
        ],
        "name": [
          {
            "use": "official",
            "family": "Flame",
            "given": [
              "Eric"
            ]
          }
        ],
        "telecom": [
          {
            "system": "phone",
            "value": "12345678"
          }
        ],
        "address": [
          {
            "line": [
              "Flammesvinget 1"
            ],
            "city": "Aarhus",
            "postalCode": "8000 C"
          }
        ],
        "managingOrganization": {
          "reference": "Organization/BurnCenter"
        }
      }
    },
    {
      "fullUrl": "Organization/BurnCenter",
      "resource": {
        "resourceType": "Organization",
        "id": "BurnCenter",
        "meta": {
          "profile": [
            "http://medcomfhir.dk/fhir/core/1.0/StructureDefinition/medcom-core-organization"
          ]
        },
        "text": {
          "status": "generated",
          "div": "<div xmlns=\"http://www.w3.org/1999/xhtml\"><p><b>Generated Narrative</b></p><p><b>identifier</b>: id: 123456789012345 (OFFICIAL)</p><p><b>name</b>: Aros Burn Center</p></div>"
        },
        "identifier": [
          {
            "use": "official",
            "system": "urn:oid:1.2.208.176.1.1",
            "value": "123456789012345"
          }
        ],
        "name": "Aros Burn Center"
      }
    },
    {
      "fullUrl": "Encounter/HospitalNotificationEncounterInProgress",
      "resource": {
        "resourceType": "Encounter",
        "id": "HospitalNotificationEncounterInProgress",
        "meta": {
          "profile": [
            "http://medcomfhir.dk/fhir/core/1.0/StructureDefinition/medcom-hospitalNotification-encounter"
          ]
        },
        "text": {
          "status": "generated",
          "div": "<div xmlns=\"http://www.w3.org/1999/xhtml\"><p><b>Generated Narrative</b></p><p><b>identifier</b>: id: 1234567890</p><p><b>status</b>: in-progress</p><p><b>class</b>: <span title=\"{http://terminology.hl7.org/CodeSystem/v3-ActCode IMP}\">inpatient encounter</span></p><p><b>subject</b>: <a href=\"#Patient_733cef33-3626-422b-955d-d506aaa65fe1\">See above (Patient/733cef33-3626-422b-955d-d506aaa65fe1)</a></p><p><b>episodeOfCare</b>: <span></span></p><p><b>period</b>: 15. okt. 2020 15.44.14 --&gt; (ongoing)</p><p><b>serviceProvider</b>: <a href=\"#Organization_BurnCenter\">See above (Organization/BurnCenter)</a></p></div>"
        },
        "identifier": [
          {
            "value": "1234567890"
          }
        ],
        "status": "in-progress",
        "class": {
          "system": "http://terminology.hl7.org/CodeSystem/v3-ActCode",
          "code": "IMP"
        },
        "subject": {
          "reference": "Patient/733cef33-3626-422b-955d-d506aaa65fe1"
        },
        "episodeOfCare": [
          {
            "identifier": {
              "system": "https://www.esundhed.dk/Registre/Landspatientsregisteret",
              "value": "87654321-1234-1234-1234-123456789012"
            }
          }
        ],
        "period": {
          "start": "2020-10-15T13:44:14Z"
        },
        "serviceProvider": {
          "reference": "Organization/BurnCenter"
        }
      }
    },
    {
      "fullUrl": "Organization/MessageReceiver",
      "resource": {
        "resourceType": "Organization",
        "id": "MessageReceiver",
        "meta": {
          "profile": [
            "http://medcomfhir.dk/fhir/core/1.0/StructureDefinition/medcom-messaging-organization"
          ]
        },
        "text": {
          "status": "generated",
          "div": "<div xmlns=\"http://www.w3.org/1999/xhtml\"><p><b>Generated Narrative</b></p><p><b>identifier</b>: id: 543210987654321, id: 3210987654321</p><p><b>name</b>: Receiver Organization</p></div>"
        },
        "identifier": [
          {
            "system": "urn:oid:1.2.208.176.1.1",
            "value": "543210987654321"
          },
          {
            "system": "urn:oid:1.3.88",
            "value": "3210987654321"
          }
        ],
        "name": "Receiver Organization"
      }
    },
    {
      "fullUrl": "Organization/MessageSender",
      "resource": {
        "resourceType": "Organization",
        "id": "MessageSender",
        "meta": {
          "profile": [
            "http://medcomfhir.dk/fhir/core/1.0/StructureDefinition/medcom-messaging-organization"
          ]
        },
        "text": {
          "status": "generated",
          "div": "<div xmlns=\"http://www.w3.org/1999/xhtml\"><p><b>Generated Narrative</b></p><p><b>identifier</b>: id: 123456789012345, id: 1234567890123</p><p><b>name</b>: Sender Organization</p></div>"
        },
        "identifier": [
          {
            "system": "urn:oid:1.2.208.176.1.1",
            "value": "123456789012345"
          },
          {
            "system": "urn:oid:1.3.88",
            "value": "1234567890123"
          }
        ],
        "name": "Sender Organization"
      }
    },
    {
      "fullUrl": "Provenance/HospitalNotificationAdmitProvenance",
      "resource": {
        "resourceType": "Provenance",
        "id": "HospitalNotificationAdmitProvenance",
        "meta": {
          "profile": [
            "http://medcomfhir.dk/fhir/core/1.0/StructureDefinition/medcom-messaging-provenance"
          ]
        },
        "text": {
          "status": "generated",
          "div": "<div xmlns=\"http://www.w3.org/1999/xhtml\"><p><b>Generated Narrative</b></p><p><b>target</b>: <a href=\"#MessageHeader_HospitalNotificationAdmittedMessageHeader\">See above (MessageHeader/HospitalNotificationAdmittedMessageHeader)</a></p><p><b>occurred</b>: 15. okt. 2020 15.44.14</p><p><b>recorded</b>: 15. okt. 2020 15.45.15</p><p><b>activity</b>: <span title=\"Codes: {http://medcomfhir.dk/fhir/core/1.0/CodeSystem/medcom-messaging-activityCodes admit-inpatient}\">Start hospital stay-admission</span></p><h3>Agents</h3><table class=\"grid\"><tr><td>-</td><td><b>Who</b></td></tr><tr><td>*</td><td><a href=\"#Organization_MessageSender\">See above (Organization/MessageSender)</a></td></tr></table></div>"
        },
        "target": [
          {
            "reference": "MessageHeader/HospitalNotificationAdmittedMessageHeader"
          }
        ],
        "occurredDateTime": "2020-10-15T13:44:14Z",
        "recorded": "2020-10-15T13:45:15Z",
        "activity": {
          "coding": [
            {
              "system": "http://medcomfhir.dk/fhir/core/1.0/CodeSystem/medcom-messaging-activityCodes",
              "code": "admit-inpatient"
            }
          ]
        },
        "agent": [
          {
            "who": {
              "reference": "Organization/MessageSender"
            }
          }
        ]
      }
    }
  ]
}