<?xml version="1.0" encoding="UTF-8"?>

<Bundle xmlns="http://hl7.org/fhir">
  <id value="MedComHospitalNotificationMessageDischargeDeceasedExample"/>
  <meta>
    <profile value="http://medcomfhir.dk/fhir/core/1.0/StructureDefinition/medcom-hospitalNotification-message"/>
  </meta>
  <type value="message"/>
  <timestamp value="2021-01-13T13:44:14Z"/>
  <entry>
    <fullUrl value="MessageHeader/HospitalNotificationDischargedDeceasedMessageHeader"/>
    <resource>
      <MessageHeader>
        <id value="HospitalNotificationDischargedDeceasedMessageHeader"/>
        <meta>
          <profile value="http://medcomfhir.dk/fhir/core/1.0/StructureDefinition/medcom-hospitalNotification-messageHeader"/>
        </meta>
        <text>
          <status value="generated"/><div xmlns="http://www.w3.org/1999/xhtml"><p><b>Generated Narrative</b></p><p><b>event</b>: <span title="{http://medcomfhir.dk/fhir/core/1.0/CodeSystem/medcom-messaging-eventCodes hospital-notification-message}">Hospital Notification Message</span></p><h3>Destinations</h3><table class="grid"><tr><td>-</td><td><b>Extension</b></td><td><b>Endpoint</b></td><td><b>Receiver</b></td></tr><tr><td>*</td><td></td><td><a href="http://medcom.dk/unknown">http://medcom.dk/unknown</a></td><td><a href="#Organization_MessageReceiver">See above (Organization/MessageReceiver)</a></td></tr></table><p><b>sender</b>: <a href="#Organization_MessageSender">See above (Organization/MessageSender)</a></p><h3>Sources</h3><table class="grid"><tr><td>-</td><td><b>Endpoint</b></td></tr><tr><td>*</td><td><a href="http://medcom.dk/unknown">http://medcom.dk/unknown</a></td></tr></table><p><b>focus</b>: <a href="#Encounter_HospitalNotificationEncounterFinishedWhenDeceased">See above (Encounter/HospitalNotificationEncounterFinishedWhenDeceased)</a></p></div>
        </text>
        <eventCoding>
          <system value="http://medcomfhir.dk/fhir/core/1.0/CodeSystem/medcom-messaging-eventCodes"/>
          <code value="hospital-notification-message"/>
        </eventCoding>
        <destination>
          <extension url="http://medcomfhir.dk/fhir/core/1.0/StructureDefinition/medcom-messaging-destinationUseExtension">
            <valueCoding>
              <system value="http://medcomfhir.dk/fhir/core/1.0/CodeSystem/medcom-messaging-destinationUse"/>
              <code value="primary"/>
            </valueCoding>
          </extension>
          <endpoint value="http://medcom.dk/unknown"/>
          <receiver>
            <reference value="Organization/MessageReceiver"/>
          </receiver>
        </destination>
        <sender>
          <reference value="Organization/MessageSender"/>
        </sender>
        <source>
          <endpoint value="http://medcom.dk/unknown"/>
        </source>
        <focus>
          <reference value="Encounter/HospitalNotificationEncounterFinishedWhenDeceased"/>
        </focus>
      </MessageHeader>
    </resource>
  </entry>
  <entry>
    <fullUrl value="Patient/382fb8a3-6725-41e2-a615-2b1cfcfe9931"/>
    <resource>
      <Patient>
        <id value="382fb8a3-6725-41e2-a615-2b1cfcfe9931"/>
        <meta>
          <profile value="http://medcomfhir.dk/fhir/core/1.0/StructureDefinition/medcom-core-patient"/>
        </meta>
        <text>
          <status value="generated"/><div xmlns="http://www.w3.org/1999/xhtml"><p><b>Generated Narrative</b></p><p><b>identifier</b>: id: 0101010141</p><p><b>name</b>: Erik Clausen (OFFICIAL)</p><p><b>telecom</b>: ph: 24533421</p><p><b>deceased</b>: true</p><p><b>address</b>: Forskerparken 10 Odense M 5230 </p><p><b>managingOrganization</b>: <a href="#Organization_PractitionerClinic">See above (Organization/PractitionerClinic)</a></p></div>
        </text>
        <identifier>
          <system value="urn:oid:1.2.208.176.1.2"/>
          <value value="0101010141"/>
        </identifier>
        <name>
          <use value="official"/>
          <family value="Clausen"/>
          <given value="Erik"/>
        </name>
        <telecom>
          <system value="phone"/>
          <value value="24533421"/>
        </telecom>
        <deceasedBoolean value="true"/>
        <address>
          <line value="Forskerparken 10"/>
          <city value="Odense M"/>
          <postalCode value="5230"/>
        </address>
        <managingOrganization>
          <reference value="Organization/PractitionerClinic"/>
        </managingOrganization>
      </Patient>
    </resource>
  </entry>
  <entry>
    <fullUrl value="Organization/PractitionerClinic"/>
    <resource>
      <Organization>
        <id value="PractitionerClinic"/>
        <meta>
          <profile value="http://medcomfhir.dk/fhir/core/1.0/StructureDefinition/medcom-core-organization"/>
        </meta>
        <text>
          <status value="generated"/><div xmlns="http://www.w3.org/1999/xhtml"><p><b>Generated Narrative</b></p><p><b>identifier</b>: id: 378631000016009 (OFFICIAL)</p><p><b>name</b>: Test Practitioner clinic</p></div>
        </text>
        <identifier>
          <use value="official"/>
          <system value="urn:oid:1.2.208.176.1.1"/>
          <value value="378631000016009"/>
        </identifier>
        <name value="Test Practitioner clinic"/>
      </Organization>
    </resource>
  </entry>
  <entry>
    <fullUrl value="Encounter/HospitalNotificationEncounterFinishedWhenDeceased"/>
    <resource>
      <Encounter>
        <id value="HospitalNotificationEncounterFinishedWhenDeceased"/>
        <meta>
          <profile value="http://medcomfhir.dk/fhir/core/1.0/StructureDefinition/medcom-hospitalNotification-encounter"/>
        </meta>
        <text>
          <status value="generated"/><div xmlns="http://www.w3.org/1999/xhtml"><p><b>Generated Narrative</b></p><p><b>identifier</b>: id: 7b9f8497-3314-4535-8f86-20df7b5f4d55</p><p><b>status</b>: finished</p><p><b>class</b>: <span title="{http://terminology.hl7.org/CodeSystem/v3-ActCode IMP}">inpatient encounter</span></p><p><b>subject</b>: <a href="#Patient_382fb8a3-6725-41e2-a615-2b1cfcfe9931">See above (Patient/382fb8a3-6725-41e2-a615-2b1cfcfe9931)</a></p><p><b>episodeOfCare</b>: <span></span></p><p><b>period</b>: 13. jan. 2021 14.44.14 --&gt; (ongoing)</p><p><b>serviceProvider</b>: <a href="#Organization_PractitionerClinic">See above (Organization/PractitionerClinic)</a></p></div>
        </text>
        <identifier>
          <value value="7b9f8497-3314-4535-8f86-20df7b5f4d55"/>
        </identifier>
        <status value="finished"/>
        <class>
          <system value="http://terminology.hl7.org/CodeSystem/v3-ActCode"/>
          <code value="IMP"/>
        </class>
        <subject>
          <reference value="Patient/382fb8a3-6725-41e2-a615-2b1cfcfe9931"/>
        </subject>
        <episodeOfCare>
          <identifier>
            <system value="https://www.esundhed.dk/Registre/Landspatientsregisteret"/>
            <value value="200040a2-e05d-4af3-91e7-5febfa8ad0b3"/>
          </identifier>
        </episodeOfCare>
        <period>
          <start value="2021-01-13T13:44:14Z"/>
        </period>
        <serviceProvider>
          <reference value="Organization/PractitionerClinic"/>
        </serviceProvider>
      </Encounter>
    </resource>
  </entry>
  <entry>
    <fullUrl value="Organization/MessageReceiver"/>
    <resource>
      <Organization>
        <id value="MessageReceiver"/>
        <meta>
          <profile value="http://medcomfhir.dk/fhir/core/1.0/StructureDefinition/medcom-messaging-organization"/>
        </meta>
        <text>
          <status value="generated"/><div xmlns="http://www.w3.org/1999/xhtml"><p><b>Generated Narrative</b></p><p><b>identifier</b>: id: 543210987654321, id: 3210987654321</p><p><b>name</b>: Receiver Organization</p></div>
        </text>
        <identifier>
          <system value="urn:oid:1.2.208.176.1.1"/>
          <value value="543210987654321"/>
        </identifier>
        <identifier>
          <system value="urn:oid:1.3.88"/>
          <value value="3210987654321"/>
        </identifier>
        <name value="Receiver Organization"/>
      </Organization>
    </resource>
  </entry>
  <entry>
    <fullUrl value="Organization/MessageSender"/>
    <resource>
      <Organization>
        <id value="MessageSender"/>
        <meta>
          <profile value="http://medcomfhir.dk/fhir/core/1.0/StructureDefinition/medcom-messaging-organization"/>
        </meta>
        <text>
          <status value="generated"/><div xmlns="http://www.w3.org/1999/xhtml"><p><b>Generated Narrative</b></p><p><b>identifier</b>: id: 123456789012345, id: 1234567890123</p><p><b>name</b>: Sender Organization</p></div>
        </text>
        <identifier>
          <system value="urn:oid:1.2.208.176.1.1"/>
          <value value="123456789012345"/>
        </identifier>
        <identifier>
          <system value="urn:oid:1.3.88"/>
          <value value="1234567890123"/>
        </identifier>
        <name value="Sender Organization"/>
      </Organization>
    </resource>
  </entry>
  <entry>
    <fullUrl value="Provenance/HospitalNotificationAdmitForDischargeDeceasedProvenance"/>
    <resource>
      <Provenance>
        <id value="HospitalNotificationAdmitForDischargeDeceasedProvenance"/>
        <meta>
          <profile value="http://medcomfhir.dk/fhir/core/1.0/StructureDefinition/medcom-messaging-provenance"/>
        </meta>
        <text>
          <status value="generated"/><div xmlns="http://www.w3.org/1999/xhtml"><p><b>Generated Narrative</b></p><p><b>target</b>: <a href="#MessageHeader_HospitalNotificationDischargedDeceasedMessageHeader">See above (MessageHeader/HospitalNotificationDischargedDeceasedMessageHeader)</a></p><p><b>occurred</b>: 13. jan. 2021 14.44.14</p><p><b>recorded</b>: 13. jan. 2021 14.45.15</p><p><b>activity</b>: <span title="Codes: {http://medcomfhir.dk/fhir/core/1.0/CodeSystem/medcom-messaging-activityCodes discharge-inpatient-home}">End hospital Stay - patient discharged to home/primary sector</span></p><h3>Agents</h3><table class="grid"><tr><td>-</td><td><b>Who</b></td></tr><tr><td>*</td><td><a href="#Organization_MessageSender">See above (Organization/MessageSender)</a></td></tr></table></div>
        </text>
        <target>
          <reference value="MessageHeader/HospitalNotificationDischargedDeceasedMessageHeader"/>
        </target>
        <occurredDateTime value="2021-01-13T13:44:14Z"/>
        <recorded value="2021-01-13T13:45:15Z"/>
        <activity>
          <coding>
            <system value="http://medcomfhir.dk/fhir/core/1.0/CodeSystem/medcom-messaging-activityCodes"/>
            <code value="discharge-inpatient-home"/>
          </coding>
        </activity>
        <agent>
          <who>
            <reference value="Organization/MessageSender"/>
          </who>
        </agent>
      </Provenance>
    </resource>
  </entry>
</Bundle>